{"object":["dock_board","board"],"payload":{"blocks":{"object":["blocks","vctrs_vctr","list"],"payload":{"data":{"object":["dm_example_block","dm_block","data_block","block","vctrs_vctr","list"],"payload":{"dataset":["safetydata_adam"],"visible":["inputs","outputs"],"visible.29":["header","inputs","outputs"],"visible.28":["header","inputs","outputs"],"visible.27":["header","inputs","outputs"],"visible.26":["header","inputs","outputs"],"visible.25":["header","inputs","outputs"],"visible.24":["header","inputs","outputs"],"visible.23":["header","inputs","outputs"],"visible.22":["header","inputs","outputs"],"visible.21":["header","inputs","outputs"],"visible.20":["header","inputs","outputs"],"visible.19":["header","inputs","outputs"],"visible.18":["header","inputs","outputs"],"visible.17":["header","inputs","outputs"],"visible.16":["header","inputs","outputs"],"visible.15":["header","inputs","outputs"],"visible.14":["header","inputs","outputs"],"visible.13":["header","inputs","outputs"],"visible.12":["header","inputs","outputs"],"visible.11":["header","inputs","outputs"],"visible.10":["header","inputs","outputs"],"visible.9":["header","inputs","outputs"],"visible.8":["header","inputs","outputs"],"visible.7":["header","inputs","outputs"],"visible.6":["header","inputs","outputs"],"visible.5":["header","inputs","outputs"],"visible.4":["header","inputs","outputs"],"visible.3":["header","inputs","outputs"],"visible.2":["header","inputs","outputs"],"visible.1":["header","inputs","outputs"],"block_name":["ADaM data"]},"constructor":{"object":["blockr_ctor"],"constructor":["new_dm_example_block"],"package":["blockr.dm"],"version":["0.0.7"]}},"cdisc":{"object":["cdisc_dm_block","dm_block","transform_block","block","vctrs_vctr","list"],"payload":{"set_keys":[true],"dedup_cols":[true],"visible":["inputs","outputs"],"visible.29":["header","inputs","outputs"],"visible.28":["header","inputs","outputs"],"visible.27":["header","inputs","outputs"],"visible.26":["header","inputs","outputs"],"visible.25":["header","inputs","outputs"],"visible.24":["header","inputs","outputs"],"visible.23":["header","inputs","outputs"],"visible.22":["header","inputs","outputs"],"visible.21":["header","inputs","outputs"],"visible.20":["header","inputs","outputs"],"visible.19":["header","inputs","outputs"],"visible.18":["header","inputs","outputs"],"visible.17":["header","inputs","outputs"],"visible.16":["header","inputs","outputs"],"visible.15":["header","inputs","outputs"],"visible.14":["header","inputs","outputs"],"visible.13":["header","inputs","outputs"],"visible.12":["header","inputs","outputs"],"visible.11":["header","inputs","outputs"],"visible.10":["header","inputs","outputs"],"visible.9":["header","inputs","outputs"],"visible.8":["header","inputs","outputs"],"visible.7":["header","inputs","outputs"],"visible.6":["header","inputs","outputs"],"visible.5":["header","inputs","outputs"],"visible.4":["header","inputs","outputs"],"visible.3":["header","inputs","outputs"],"visible.2":["header","inputs","outputs"],"visible.1":["header","inputs","outputs"],"block_name":["CDISC"]},"constructor":{"object":["blockr_ctor"],"constructor":["new_cdisc_dm_block"],"package":["blockr.dm"],"version":["0.0.7"]}},"global_filter":{"object":["crossfilter_block","transform_block","block","vctrs_vctr","list"],"payload":{"active_dims":{"adsl":["ARM","SEX"],"adae":["AESEV"],"advs":["PARAM","AVAL"]},"filters":{},"range_filters":{},"measure":[".count"],"agg_func":["sum"],"visible":["inputs"],"visible.29":["header","inputs"],"visible.28":["header","inputs"],"visible.27":["header","inputs"],"visible.26":["header","inputs"],"visible.25":["header","inputs"],"visible.24":["header","inputs"],"visible.23":["header","inputs"],"visible.22":["header","inputs"],"visible.21":["header","inputs"],"visible.20":["header","inputs"],"visible.19":["header","inputs"],"visible.18":["header","inputs"],"visible.17":["header","inputs"],"visible.16":["header","inputs"],"visible.15":["header","inputs"],"visible.14":["header","inputs"],"visible.13":["header","inputs"],"visible.12":["header","inputs"],"visible.11":["header","inputs"],"visible.10":["header","inputs"],"visible.9":["header","inputs"],"visible.8":["header","inputs"],"visible.7":["header","inputs"],"visible.6":["header","inputs"],"visible.5":["header","inputs"],"visible.4":["header","inputs"],"visible.3":["header","inputs"],"visible.2":["header","inputs"],"visible.1":["header","inputs"],"block_name":["Filter"]},"constructor":{"object":["blockr_ctor"],"constructor":["new_crossfilter_block"],"package":["blockr.dm"],"version":["0.0.7"]}},"pop_demog":{"object":["summary_table_block","transform_block","block","transform_block","block","vctrs_vctr","list"],"payload":{"vars":["AGE","SEX","RACE","ETHNIC","AGEGR1"],"sections":[],"by":["ARM"],"stats":["compact"],"add_overall":[true],"overall_label":["Total"],"indent_details":[true],"nest_hierarchies":[false],"id_var":null,"visible":["inputs"],"visible.29":["header","inputs"],"visible.28":["header","inputs"],"visible.27":["header","inputs"],"visible.26":["header","inputs"],"visible.25":["header","inputs"],"visible.24":["header","inputs"],"visible.23":["header","inputs"],"visible.22":["header","inputs"],"visible.21":["header","inputs"],"visible.20":["header","inputs"],"visible.19":["header","inputs"],"visible.18":["header","inputs"],"visible.17":["header","inputs"],"visible.16":["header","inputs"],"visible.15":["header","inputs"],"visible.14":["header","inputs"],"visible.13":["header","inputs"],"visible.12":["header","inputs"],"visible.11":["header","inputs"],"visible.10":["header","inputs"],"visible.9":["header","inputs"],"visible.8":["header","inputs"],"visible.7":["header","inputs"],"visible.6":["header","inputs"],"visible.5":["header","inputs"],"visible.4":["header","inputs"],"visible.3":["header","inputs"],"visible.2":["header","inputs"],"visible.1":["header","inputs"],"block_name":["Demographics"]},"constructor":{"object":["blockr_ctor"],"constructor":["new_summary_table_block"],"package":["blockr.viz"],"version":["0.1.18"]}},"pop_demog_tbl":{"object":["gt_table_block","transform_block","block","vctrs_vctr","list"],"payload":{"title":[""],"subtitle":[""],"full_width":[true],"borders":[true],"na_rep":["—"],"visible":["outputs"],"visible.29":["header","outputs"],"visible.28":["header","outputs"],"visible.27":["header","outputs"],"visible.26":["header","outputs"],"visible.25":["header","outputs"],"visible.24":["header","outputs"],"visible.23":["header","outputs"],"visible.22":["header","outputs"],"visible.21":["header","outputs"],"visible.20":["header","outputs"],"visible.19":["header","outputs"],"visible.18":["header","outputs"],"visible.17":["header","outputs"],"visible.16":["header","outputs"],"visible.15":["header","outputs"],"visible.14":["header","outputs"],"visible.13":["header","outputs"],"visible.12":["header","outputs"],"visible.11":["header","outputs"],"visible.10":["header","outputs"],"visible.9":["header","outputs"],"visible.8":["header","outputs"],"visible.7":["header","outputs"],"visible.6":["header","outputs"],"visible.5":["header","outputs"],"visible.4":["header","outputs"],"visible.3":["header","outputs"],"visible.2":["header","outputs"],"visible.1":["header","outputs"],"block_name":["Table"]},"constructor":{"object":["blockr_ctor"],"constructor":["new_gt_table_block"],"package":["blockr.viz"],"version":["0.1.18"]}},"dx_pull":{"object":["dm_pull_block","transform_block","block","vctrs_vctr","list"],"payload":{"table":["adsl"],"visible":["inputs"],"visible.29":["header","inputs"],"visible.28":["header","inputs"],"visible.27":["header","inputs"],"visible.26":["header","inputs"],"visible.25":["header","inputs"],"visible.24":["header","inputs"],"visible.23":["header","inputs"],"visible.22":["header","inputs"],"visible.21":["header","inputs"],"visible.20":["header","inputs"],"visible.19":["header","inputs"],"visible.18":["header","inputs"],"visible.17":["header","inputs"],"visible.16":["header","inputs"],"visible.15":["header","inputs"],"visible.14":["header","inputs"],"visible.13":["header","inputs"],"visible.12":["header","inputs"],"visible.11":["header","inputs"],"visible.10":["header","inputs"],"visible.9":["header","inputs"],"visible.8":["header","inputs"],"visible.7":["header","inputs"],"visible.6":["header","inputs"],"visible.5":["header","inputs"],"visible.4":["header","inputs"],"visible.3":["header","inputs"],"visible.2":["header","inputs"],"visible.1":["header","inputs"],"block_name":["Table"]},"constructor":{"object":["blockr_ctor"],"constructor":["new_dm_pull_block"],"package":["blockr.dm"],"version":["0.0.7"]}},"dx_select":{"object":["select_block","transform_block","block","vctrs_vctr","list"],"payload":{"columns":[],"exclude":[false],"distinct":[false],"visible":["inputs"],"visible.29":["header","inputs"],"visible.28":["header","inputs"],"visible.27":["header","inputs"],"visible.26":["header","inputs"],"visible.25":["header","inputs"],"visible.24":["header","inputs"],"visible.23":["header","inputs"],"visible.22":["header","inputs"],"visible.21":["header","inputs"],"visible.20":["header","inputs"],"visible.19":["header","inputs"],"visible.18":["header","inputs"],"visible.17":["header","inputs"],"visible.16":["header","inputs"],"visible.15":["header","inputs"],"visible.14":["header","inputs"],"visible.13":["header","inputs"],"visible.12":["header","inputs"],"visible.11":["header","inputs"],"visible.10":["header","inputs"],"visible.9":["header","inputs"],"visible.8":["header","inputs"],"visible.7":["header","inputs"],"visible.6":["header","inputs"],"visible.5":["header","inputs"],"visible.4":["header","inputs"],"visible.3":["header","inputs"],"visible.2":["header","inputs"],"visible.1":["header","inputs"],"block_name":["Columns"]},"constructor":{"object":["blockr_ctor"],"constructor":["new_select_block"],"package":["blockr.dplyr"],"version":["0.1.0.9004"]}},"dx_search":{"object":["search_block","transform_block","block","vctrs_vctr","list"],"payload":{"string":[""],"visible":["inputs","outputs"],"visible.29":["header","inputs","outputs"],"visible.28":["header","inputs","outputs"],"visible.27":["header","inputs","outputs"],"visible.26":["header","inputs","outputs"],"visible.25":["header","inputs","outputs"],"visible.24":["header","inputs","outputs"],"visible.23":["header","inputs","outputs"],"visible.22":["header","inputs","outputs"],"visible.21":["header","inputs","outputs"],"visible.20":["header","inputs","outputs"],"visible.19":["header","inputs","outputs"],"visible.18":["header","inputs","outputs"],"visible.17":["header","inputs","outputs"],"visible.16":["header","inputs","outputs"],"visible.15":["header","inputs","outputs"],"visible.14":["header","inputs","outputs"],"visible.13":["header","inputs","outputs"],"visible.12":["header","inputs","outputs"],"visible.11":["header","inputs","outputs"],"visible.10":["header","inputs","outputs"],"visible.9":["header","inputs","outputs"],"visible.8":["header","inputs","outputs"],"visible.7":["header","inputs","outputs"],"visible.6":["header","inputs","outputs"],"visible.5":["header","inputs","outputs"],"visible.4":["header","inputs","outputs"],"visible.3":["header","inputs","outputs"],"visible.2":["header","inputs","outputs"],"visible.1":["header","inputs","outputs"],"block_name":["Search"]},"constructor":{"object":["blockr_ctor"],"constructor":["new_search_block"],"package":["blockr.extra"],"version":["0.0.25"]}},"dx_download":{"object":["download_block","rbind_block","transform_block","block","vctrs_vctr","list"],"payload":{"filename":[""],"format":["csv"],"args":{"sep":[","],"quote":[true],"na":[""]},"visible":["inputs"],"visible.29":["header","inputs"],"visible.28":["header","inputs"],"visible.27":["header","inputs"],"visible.26":["header","inputs"],"visible.25":["header","inputs"],"visible.24":["header","inputs"],"visible.23":["header","inputs"],"visible.22":["header","inputs"],"visible.21":["header","inputs"],"visible.20":["header","inputs"],"visible.19":["header","inputs"],"visible.18":["header","inputs"],"visible.17":["header","inputs"],"visible.16":["header","inputs"],"visible.15":["header","inputs"],"visible.14":["header","inputs"],"visible.13":["header","inputs"],"visible.12":["header","inputs"],"visible.11":["header","inputs"],"visible.10":["header","inputs"],"visible.9":["header","inputs"],"visible.8":["header","inputs"],"visible.7":["header","inputs"],"visible.6":["header","inputs"],"visible.5":["header","inputs"],"visible.4":["header","inputs"],"visible.3":["header","inputs"],"visible.2":["header","inputs"],"visible.1":["header","inputs"],"block_name":["Download"]},"constructor":{"object":["blockr_ctor"],"constructor":["new_download_block"],"package":["blockr.io"],"version":["0.1.0.9000"]}},"ae_flat":{"object":["dm_flatten_block","transform_block","block","vctrs_vctr","list"],"payload":{"start_table":["adae"],"include_tables":["adsl"],"join_type":["left"],"recursive":[false],"visible":["inputs","outputs"],"visible.29":["header","inputs","outputs"],"visible.28":["header","inputs","outputs"],"visible.27":["header","inputs","outputs"],"visible.26":["header","inputs","outputs"],"visible.25":["header","inputs","outputs"],"visible.24":["header","inputs","outputs"],"visible.23":["header","inputs","outputs"],"visible.22":["header","inputs","outputs"],"visible.21":["header","inputs","outputs"],"visible.20":["header","inputs","outputs"],"visible.19":["header","inputs","outputs"],"visible.18":["header","inputs","outputs"],"visible.17":["header","inputs","outputs"],"visible.16":["header","inputs","outputs"],"visible.15":["header","inputs","outputs"],"visible.14":["header","inputs","outputs"],"visible.13":["header","inputs","outputs"],"visible.12":["header","inputs","outputs"],"visible.11":["header","inputs","outputs"],"visible.10":["header","inputs","outputs"],"visible.9":["header","inputs","outputs"],"visible.8":["header","inputs","outputs"],"visible.7":["header","inputs","outputs"],"visible.6":["header","inputs","outputs"],"visible.5":["header","inputs","outputs"],"visible.4":["header","inputs","outputs"],"visible.3":["header","inputs","outputs"],"visible.2":["header","inputs","outputs"],"visible.1":["header","inputs","outputs"],"block_name":["Adverse Events"]},"constructor":{"object":["blockr_ctor"],"constructor":["new_dm_flatten_block"],"package":["blockr.dm"],"version":["0.0.7"]}},"traj_chart":{"object":["chart_block","transform_block","block","vctrs_vctr","list"],"payload":{"group":null,"color":null,"facet":null,"value":[".count"],"func":["count"],"chart_type":["line"],"x":["ADY"],"y":["AVAL"],"series":["USUBJID"],"xend":null,"label":null,"tt_fields":null,"drill":["USUBJID"],"sort_by":null,"sort_dir":null,"orientation":["horizontal"],"bar_mode":["stacked"],"filter_type":["categorical"],"filter_column":null,"filter_values":null,"filter_range":null,"filter_point":null,"line_width_mult":[1],"dot_size_mult":[1],"step":null,"ref_x":null,"ref_y":null,"smoother":["none"],"identity_line":["off"],"box_points":["none"],"lo":null,"hi":null,"baseline":["zero"],"waterfall_totals":null,"block_name":["Lab Trajectory"]},"constructor":{"object":["blockr_ctor"],"constructor":["new_chart_block"],"package":["blockr.viz"],"version":["0.1.18"]}},"gantt_chart":{"object":["chart_block","transform_block","block","vctrs_vctr","list"],"payload":{"group":null,"color":["AESEV"],"facet":null,"value":[".count"],"func":["count"],"chart_type":["gantt"],"x":["ASTDY"],"y":["USUBJID"],"series":["AETERM"],"xend":["AENDY"],"label":null,"tt_fields":null,"drill":["USUBJID"],"sort_by":["onset"],"sort_dir":["asc"],"orientation":["horizontal"],"bar_mode":["stacked"],"filter_type":["categorical"],"filter_column":null,"filter_values":null,"filter_range":null,"filter_point":null,"line_width_mult":[1],"dot_size_mult":[1],"step":null,"ref_x":null,"ref_y":null,"smoother":["none"],"identity_line":["off"],"box_points":["none"],"lo":null,"hi":null,"baseline":["zero"],"waterfall_totals":null,"block_name":["AE Swimmlanes"]},"constructor":{"object":["blockr_ctor"],"constructor":["new_chart_block"],"package":["blockr.viz"],"version":["0.1.18"]}},"pt_latest":{"object":["latest_block","transform_block","block","vctrs_vctr","list"],"payload":{"last_active":["4"],"visible":["inputs","outputs"],"visible.29":["header","inputs","outputs"],"visible.28":["header","inputs","outputs"],"visible.27":["header","inputs","outputs"],"visible.26":["header","inputs","outputs"],"visible.25":["header","inputs","outputs"],"visible.24":["header","inputs","outputs"],"visible.23":["header","inputs","outputs"],"visible.22":["header","inputs","outputs"],"visible.21":["header","inputs","outputs"],"visible.20":["header","inputs","outputs"],"visible.19":["header","inputs","outputs"],"visible.18":["header","inputs","outputs"],"visible.17":["header","inputs","outputs"],"visible.16":["header","inputs","outputs"],"visible.15":["header","inputs","outputs"],"visible.14":["header","inputs","outputs"],"visible.13":["header","inputs","outputs"],"visible.12":["header","inputs","outputs"],"visible.11":["header","inputs","outputs"],"visible.10":["header","inputs","outputs"],"visible.9":["header","inputs","outputs"],"visible.8":["header","inputs","outputs"],"visible.7":["header","inputs","outputs"],"visible.6":["header","inputs","outputs"],"visible.5":["header","inputs","outputs"],"visible.4":["header","inputs","outputs"],"visible.3":["header","inputs","outputs"],"visible.2":["header","inputs","outputs"],"visible.1":["header","inputs","outputs"],"block_name":["Selected patient"]},"constructor":{"object":["blockr_ctor"],"constructor":["new_latest_block"],"package":["blockr.extra"],"version":["0.0.25"]}},"pt_semi":{"object":["dm_filter_by_data_block","transform_block","block","vctrs_vctr","list"],"payload":{"table":["adsl"],"key_col":["USUBJID"],"distinct_only":[true],"block_name":["Patient filter"]},"constructor":{"object":["blockr_ctor"],"constructor":["new_dm_filter_by_data_block"],"package":["blockr.dm"],"version":["0.0.7"]}},"pt_profile":{"object":["patient_profile_block","dm_block","transform_block","block","vctrs_vctr","list"],"payload":{"selected":["patient_overview","ae_gantt"],"viz_settings":[],"timeline_mode":["rday"],"block_name":["Patient profile"]},"constructor":{"object":["blockr_ctor"],"constructor":["new_patient_profile_block"],"package":["blockr.pharma"],"version":["0.0.0.9000"]}},"public_pike":{"object":["function_block","block","vctrs_vctr","list"],"payload":{"fn":["function (data) \n{\n    top_n <- 30L\n    term_var <- \"AEDECOD\"\n    if (!term_var %in% names(data)) \n        return(data.frame(message = \"No data\"))\n    subj_col <- if (\"USUBJID\" %in% names(data)) \n        \"USUBJID\"\n    else if (\"SUBJID\" %in% names(data)) \n        \"SUBJID\"\n    else NULL\n    if (is.null(subj_col)) \n        return(data.frame(message = \"No data\"))\n    grade_col <- if (\"AETOXGR\" %in% names(data)) \n        \"AETOXGR\"\n    else NULL\n    tc <- as.data.frame(table(data[[term_var]]), stringsAsFactors = FALSE)\n    names(tc) <- c(\"term\", \"n\")\n    tc <- tc[order(-tc$n), , drop = FALSE]\n    top_terms <- utils::head(tc$term, top_n)\n    filt <- data[data[[term_var]] %in% top_terms, , drop = FALSE]\n    if (nrow(filt) == 0L) \n        return(data.frame(message = \"No data\"))\n    key <- paste(filt[[subj_col]], filt[[term_var]], sep = \"\\r\")\n    parts <- split(seq_len(nrow(filt)), key)\n    rows <- lapply(parts, function(ix) {\n        s <- filt[ix, , drop = FALSE]\n        if (!is.null(grade_col)) {\n            g <- suppressWarnings(as.numeric(as.character(s[[grade_col]])))\n            v <- suppressWarnings(max(g, na.rm = TRUE))\n            if (!is.finite(v)) \n                v <- NA_real_\n        }\n        else {\n            v <- nrow(s)\n        }\n        data.frame(subj = s[[subj_col]][1L], term = s[[term_var]][1L], \n            value = v, stringsAsFactors = FALSE)\n    })\n    agg <- do.call(rbind, rows)\n    term_order <- top_terms[top_terms %in% agg$term]\n    bd <- stats::aggregate(value ~ subj, agg, function(x) sum(x, \n        na.rm = TRUE))\n    subj_order <- bd$subj[order(-bd$value)]\n    out <- data.frame(USUBJID = subj_order, stringsAsFactors = FALSE, \n        check.names = FALSE)\n    for (tm in term_order) {\n        sub <- agg[agg$term == tm, , drop = FALSE]\n        out[[tm]] <- sub$value[match(subj_order, sub$subj)]\n    }\n    out\n}"],"block_name":["AE heatmap prep (subject x PT)"]},"constructor":{"object":["blockr_ctor"],"constructor":["new_function_block"],"package":["blockr.extra"],"version":["0.0.25"]}},"ae_heatmap_tbl":{"object":["table_block","transform_block","block","vctrs_vctr","list"],"payload":{"rowname":null,"value":null,"group":null,"summaries":[],"color":null,"shadings":[{"mode":["sequential"],"cols":[]}],"cell_color":{"type":["sequential"],"domain":null,"palette":null,"columns":null},"row_color":null,"drill":null,"digits":[2],"max_height":["600px"],"filter_type":["categorical"],"filter_column":null,"filter_values":null,"filter_range":null,"filter_group_cols":null,"filter_group_vals":null,"sortable":[true],"collapsible":[true],"search":[true],"excel_download":[false],"block_name":["Heatmap"]},"constructor":{"object":["blockr_ctor"],"constructor":["new_table_block"],"package":["blockr.viz"],"version":["0.1.18"]}},"loving_noddy":{"object":["chart_block","transform_block","block","vctrs_vctr","list"],"payload":{"group":["AEDECOD"],"color":["AESEV"],"facet":null,"value":[".count"],"func":["count"],"chart_type":["bar"],"x":null,"y":null,"series":null,"xend":null,"label":null,"tt_fields":null,"drill":["USUBJID"],"sort_by":["value"],"sort_dir":["desc"],"orientation":["horizontal"],"bar_mode":["stacked"],"filter_type":["categorical"],"filter_column":null,"filter_values":null,"filter_range":null,"filter_point":null,"line_width_mult":[1],"dot_size_mult":[1],"step":null,"ref_x":null,"ref_y":null,"smoother":["none"],"identity_line":["off"],"box_points":["none"],"lo":null,"hi":null,"baseline":["zero"],"waterfall_totals":null,"block_name":["Most Frequent AE"]},"constructor":{"object":["blockr_ctor"],"constructor":["new_chart_block"],"package":["blockr.viz"],"version":["0.1.18"]}},"fretful_nandoo":{"object":["dm_flatten_block","transform_block","block","vctrs_vctr","list"],"payload":{"start_table":["adlbc"],"include_tables":["adsl"],"join_type":["left"],"recursive":[false],"visible":["inputs","outputs"],"visible.29":["header","inputs","outputs"],"visible.28":["header","inputs","outputs"],"visible.27":["header","inputs","outputs"],"visible.26":["header","inputs","outputs"],"visible.25":["header","inputs","outputs"],"visible.24":["header","inputs","outputs"],"visible.23":["header","inputs","outputs"],"visible.22":["header","inputs","outputs"],"visible.21":["header","inputs","outputs"],"visible.20":["header","inputs","outputs"],"visible.19":["header","inputs","outputs"],"visible.18":["header","inputs","outputs"],"visible.17":["header","inputs","outputs"],"visible.16":["header","inputs","outputs"],"visible.15":["header","inputs","outputs"],"visible.14":["header","inputs","outputs"],"visible.13":["header","inputs","outputs"],"visible.12":["header","inputs","outputs"],"visible.11":["header","inputs","outputs"],"visible.10":["header","inputs","outputs"],"visible.9":["header","inputs","outputs"],"visible.8":["header","inputs","outputs"],"visible.7":["header","inputs","outputs"],"visible.6":["header","inputs","outputs"],"visible.5":["header","inputs","outputs"],"visible.4":["header","inputs","outputs"],"visible.3":["header","inputs","outputs"],"visible.2":["header","inputs","outputs"],"visible.1":["header","inputs","outputs"],"block_name":["Lab Values"]},"constructor":{"object":["blockr_ctor"],"constructor":["new_dm_flatten_block"],"package":["blockr.dm"],"version":["0.0.7"]}},"blank_nautilus":{"object":["dm_flatten_block","transform_block","block","vctrs_vctr","list"],"payload":{"start_table":["advs"],"include_tables":["adsl"],"join_type":["left"],"recursive":[false],"visible":["inputs","outputs"],"visible.29":["header","inputs","outputs"],"visible.28":["header","inputs","outputs"],"visible.27":["header","inputs","outputs"],"visible.26":["header","inputs","outputs"],"visible.25":["header","inputs","outputs"],"visible.24":["header","inputs","outputs"],"visible.23":["header","inputs","outputs"],"visible.22":["header","inputs","outputs"],"visible.21":["header","inputs","outputs"],"visible.20":["header","inputs","outputs"],"visible.19":["header","inputs","outputs"],"visible.18":["header","inputs","outputs"],"visible.17":["header","inputs","outputs"],"visible.16":["header","inputs","outputs"],"visible.15":["header","inputs","outputs"],"visible.14":["header","inputs","outputs"],"visible.13":["header","inputs","outputs"],"visible.12":["header","inputs","outputs"],"visible.11":["header","inputs","outputs"],"visible.10":["header","inputs","outputs"],"visible.9":["header","inputs","outputs"],"visible.8":["header","inputs","outputs"],"visible.7":["header","inputs","outputs"],"visible.6":["header","inputs","outputs"],"visible.5":["header","inputs","outputs"],"visible.4":["header","inputs","outputs"],"visible.3":["header","inputs","outputs"],"visible.2":["header","inputs","outputs"],"visible.1":["header","inputs","outputs"],"block_name":["Vital Signs"]},"constructor":{"object":["blockr_ctor"],"constructor":["new_dm_flatten_block"],"package":["blockr.dm"],"version":["0.0.7"]}},"wayward_cardinal":{"object":["value_filter_block","transform_block","block","vctrs_vctr","list"],"payload":{"state":{"columns":[{"name":["PARAM"],"mode":["single"],"values":["Pulse Rate (BEATS/MIN)"]}]},"block_name":["Analysis Value"]},"constructor":{"object":["blockr_ctor"],"constructor":["new_value_filter_block"],"package":["blockr.dm"],"version":["0.0.7"]}},"cut_wryneck":{"object":["chart_block","transform_block","block","vctrs_vctr","list"],"payload":{"group":null,"color":null,"facet":null,"value":[".count"],"func":["count"],"chart_type":["line"],"x":["ADY"],"y":["AVAL"],"series":["USUBJID"],"xend":null,"label":null,"tt_fields":null,"drill":["USUBJID"],"sort_by":null,"sort_dir":null,"orientation":["horizontal"],"bar_mode":["stacked"],"filter_type":["categorical"],"filter_column":null,"filter_values":null,"filter_range":null,"filter_point":null,"line_width_mult":[1],"dot_size_mult":[1],"step":null,"ref_x":null,"ref_y":null,"smoother":["none"],"identity_line":["off"],"box_points":["none"],"lo":null,"hi":null,"baseline":["zero"],"waterfall_totals":null,"block_name":["Vital Signs Trajectory"]},"constructor":{"object":["blockr_ctor"],"constructor":["new_chart_block"],"package":["blockr.viz"],"version":["0.1.18"]}},"radiant_gaur":{"object":["value_filter_block","transform_block","block","vctrs_vctr","list"],"payload":{"state":{"columns":[{"name":["PARAM"],"mode":["single"],"values":["Alanine Aminotransferase (U/L)"]}]},"block_name":["Analysis Value"]},"constructor":{"object":["blockr_ctor"],"constructor":["new_value_filter_block"],"package":["blockr.dm"],"version":["0.0.7"]}},"bony_urson":{"object":["chart_block","transform_block","block","vctrs_vctr","list"],"payload":{"group":["ARM"],"color":["DCREASCD"],"facet":null,"value":[".count"],"func":["count"],"chart_type":["bar"],"x":null,"y":null,"series":null,"xend":null,"label":null,"tt_fields":null,"drill":null,"sort_by":null,"sort_dir":null,"orientation":["horizontal"],"bar_mode":["stacked"],"filter_type":["categorical"],"filter_column":null,"filter_values":null,"filter_range":null,"filter_point":null,"line_width_mult":[1],"dot_size_mult":[1],"step":null,"ref_x":null,"ref_y":null,"smoother":["none"],"identity_line":["off"],"box_points":["none"],"lo":null,"hi":null,"baseline":["zero"],"waterfall_totals":null,"block_name":["Drilldown chart"]},"constructor":{"object":["blockr_ctor"],"constructor":["new_chart_block"],"package":["blockr.viz"],"version":["0.1.18"]}}}},"links":{"object":["links","vctrs_rcrd","vctrs_vctr"],"payload":{"coltish_oxpecker":{"object":["link","vctrs_vctr","list"],"payload":{"from":["data"],"to":["cdisc"],"input":["data"]},"constructor":{"object":["blockr_ctor"],"constructor":["new_link"],"package":["blockr.core"],"version":["0.1.3"]}},"yeasty_wombat":{"object":["link","vctrs_vctr","list"],"payload":{"from":["cdisc"],"to":["global_filter"],"input":["data"]},"constructor":{"object":["blockr_ctor"],"constructor":["new_link"],"package":["blockr.core"],"version":["0.1.3"]}},"lucky_duck":{"object":["link","vctrs_vctr","list"],"payload":{"from":["global_filter"],"to":["dx_pull"],"input":["data"]},"constructor":{"object":["blockr_ctor"],"constructor":["new_link"],"package":["blockr.core"],"version":["0.1.3"]}},"previous_elk":{"object":["link","vctrs_vctr","list"],"payload":{"from":["global_filter"],"to":["ae_flat"],"input":["data"]},"constructor":{"object":["blockr_ctor"],"constructor":["new_link"],"package":["blockr.core"],"version":["0.1.3"]}},"diopside_bug":{"object":["link","vctrs_vctr","list"],"payload":{"from":["global_filter"],"to":["fretful_nandoo"],"input":["data"]},"constructor":{"object":["blockr_ctor"],"constructor":["new_link"],"package":["blockr.core"],"version":["0.1.3"]}},"aciduric_mantaray":{"object":["link","vctrs_vctr","list"],"payload":{"from":["global_filter"],"to":["blank_nautilus"],"input":["data"]},"constructor":{"object":["blockr_ctor"],"constructor":["new_link"],"package":["blockr.core"],"version":["0.1.3"]}},"junior_hornet":{"object":["link","vctrs_vctr","list"],"payload":{"from":["dx_pull"],"to":["pop_demog"],"input":["data"]},"constructor":{"object":["blockr_ctor"],"constructor":["new_link"],"package":["blockr.core"],"version":["0.1.3"]}},"fruited_mice":{"object":["link","vctrs_vctr","list"],"payload":{"from":["dx_pull"],"to":["dx_select"],"input":["data"]},"constructor":{"object":["blockr_ctor"],"constructor":["new_link"],"package":["blockr.core"],"version":["0.1.3"]}},"seaborne_ragfish":{"object":["link","vctrs_vctr","list"],"payload":{"from":["dx_pull"],"to":["bony_urson"],"input":["data"]},"constructor":{"object":["blockr_ctor"],"constructor":["new_link"],"package":["blockr.core"],"version":["0.1.3"]}},"pagan_okapi":{"object":["link","vctrs_vctr","list"],"payload":{"from":["dx_select"],"to":["dx_search"],"input":["data"]},"constructor":{"object":["blockr_ctor"],"constructor":["new_link"],"package":["blockr.core"],"version":["0.1.3"]}},"looney_flicker":{"object":["link","vctrs_vctr","list"],"payload":{"from":["dx_search"],"to":["dx_download"],"input":[""]},"constructor":{"object":["blockr_ctor"],"constructor":["new_link"],"package":["blockr.core"],"version":["0.1.3"]}},"jadeite_shihtzu":{"object":["link","vctrs_vctr","list"],"payload":{"from":["pop_demog"],"to":["pop_demog_tbl"],"input":["data"]},"constructor":{"object":["blockr_ctor"],"constructor":["new_link"],"package":["blockr.core"],"version":["0.1.3"]}},"drastic_herald":{"object":["link","vctrs_vctr","list"],"payload":{"from":["ae_flat"],"to":["public_pike"],"input":["data"]},"constructor":{"object":["blockr_ctor"],"constructor":["new_link"],"package":["blockr.core"],"version":["0.1.3"]}},"subsolar_muntjac":{"object":["link","vctrs_vctr","list"],"payload":{"from":["public_pike"],"to":["ae_heatmap_tbl"],"input":["data"]},"constructor":{"object":["blockr_ctor"],"constructor":["new_link"],"package":["blockr.core"],"version":["0.1.3"]}},"herbal_raccoon":{"object":["link","vctrs_vctr","list"],"payload":{"from":["ae_flat"],"to":["loving_noddy"],"input":["data"]},"constructor":{"object":["blockr_ctor"],"constructor":["new_link"],"package":["blockr.core"],"version":["0.1.3"]}},"elder_wombat":{"object":["link","vctrs_vctr","list"],"payload":{"from":["ae_flat"],"to":["gantt_chart"],"input":["data"]},"constructor":{"object":["blockr_ctor"],"constructor":["new_link"],"package":["blockr.core"],"version":["0.1.3"]}},"isotope_meerkat":{"object":["link","vctrs_vctr","list"],"payload":{"from":["fretful_nandoo"],"to":["radiant_gaur"],"input":["data"]},"constructor":{"object":["blockr_ctor"],"constructor":["new_link"],"package":["blockr.core"],"version":["0.1.3"]}},"deceased_shark":{"object":["link","vctrs_vctr","list"],"payload":{"from":["radiant_gaur"],"to":["traj_chart"],"input":["data"]},"constructor":{"object":["blockr_ctor"],"constructor":["new_link"],"package":["blockr.core"],"version":["0.1.3"]}},"nepotic_pinniped":{"object":["link","vctrs_vctr","list"],"payload":{"from":["blank_nautilus"],"to":["wayward_cardinal"],"input":["data"]},"constructor":{"object":["blockr_ctor"],"constructor":["new_link"],"package":["blockr.core"],"version":["0.1.3"]}},"carbasus_xenurine":{"object":["link","vctrs_vctr","list"],"payload":{"from":["wayward_cardinal"],"to":["cut_wryneck"],"input":["data"]},"constructor":{"object":["blockr_ctor"],"constructor":["new_link"],"package":["blockr.core"],"version":["0.1.3"]}},"zincoid_gerbil":{"object":["link","vctrs_vctr","list"],"payload":{"from":["pt_semi"],"to":["pt_profile"],"input":["data"]},"constructor":{"object":["blockr_ctor"],"constructor":["new_link"],"package":["blockr.core"],"version":["0.1.3"]}},"unlight_bobcat":{"object":["link","vctrs_vctr","list"],"payload":{"from":["traj_chart"],"to":["pt_latest"],"input":["1"]},"constructor":{"object":["blockr_ctor"],"constructor":["new_link"],"package":["blockr.core"],"version":["0.1.3"]}},"rhombic_primate":{"object":["link","vctrs_vctr","list"],"payload":{"from":["gantt_chart"],"to":["pt_latest"],"input":["2"]},"constructor":{"object":["blockr_ctor"],"constructor":["new_link"],"package":["blockr.core"],"version":["0.1.3"]}},"motherly_mouflon":{"object":["link","vctrs_vctr","list"],"payload":{"from":["cut_wryneck"],"to":["pt_latest"],"input":["3"]},"constructor":{"object":["blockr_ctor"],"constructor":["new_link"],"package":["blockr.core"],"version":["0.1.3"]}},"nickelic_aardwolf":{"object":["link","vctrs_vctr","list"],"payload":{"from":["loving_noddy"],"to":["pt_latest"],"input":["4"]},"constructor":{"object":["blockr_ctor"],"constructor":["new_link"],"package":["blockr.core"],"version":["0.1.3"]}},"lost_mongrel":{"object":["link","vctrs_vctr","list"],"payload":{"from":["cdisc"],"to":["pt_semi"],"input":["data"]},"constructor":{"object":["blockr_ctor"],"constructor":["new_link"],"package":["blockr.core"],"version":["0.1.3"]}},"extended_heifer":{"object":["link","vctrs_vctr","list"],"payload":{"from":["pt_latest"],"to":["pt_semi"],"input":["by"]},"constructor":{"object":["blockr_ctor"],"constructor":["new_link"],"package":["blockr.core"],"version":["0.1.3"]}}}},"stacks":{"object":["stacks","vctrs_vctr","list"],"payload":{}},"options":{"object":["board_options","vctrs_vctr","list"],"payload":[{"object":["board_name_option","board_option"],"payload":{"category":["Board options"]},"constructor":{"object":["blockr_ctor"],"constructor":["new_board_name_option"],"package":["blockr.core"],"version":["0.1.3"]}}]},"extensions":{"object":["dock_extensions"],"payload":[{"object":["dag_extension","dock_extension"],"payload":[],"constructor":{"object":["blockr_ctor"],"constructor":["new_dag_extension"],"package":["blockr.dag"],"version":["0.1.2"]}}]},"layouts":{"object":["dock_layouts"],"payload":{"active":["Population"],"views":{"Setup":{"object":["dock_layout"],"payload":{"orientation":["horizontal"],"children":[["block_panel-data"],["block_panel-cdisc"],["ext_panel-dag_extension"]]},"name":null},"Population":{"object":["dock_layout"],"payload":{"orientation":["horizontal"],"children":[["block_panel-global_filter"],{"panels":[["block_panel-pop_demog"],["block_panel-bony_urson"],["block_panel-pop_demog_tbl"]]}],"sizes":[0.2,0.8]},"name":null},"DataExplorer":{"object":["dock_layout"],"payload":{"orientation":["horizontal"],"children":[["block_panel-global_filter"],{"panels":[["block_panel-dx_pull"],["block_panel-dx_select"],["block_panel-dx_search"],["block_panel-dx_download"]]}],"sizes":[0.2,0.8]},"name":["Data Explorer"]},"AdverseEvents":{"object":["dock_layout"],"payload":{"orientation":["horizontal"],"children":[["block_panel-global_filter"],{"panels":[["block_panel-ae_heatmap_tbl"],["block_panel-loving_noddy"],["block_panel-gantt_chart"]]},["block_panel-pt_profile"]],"sizes":[0.2,0.4,0.4]},"name":["Adverse Events"]},"Lab":{"object":["dock_layout"],"payload":{"orientation":["horizontal"],"children":[{"children":[["block_panel-global_filter"],["block_panel-radiant_gaur"]]},["block_panel-traj_chart"],["block_panel-pt_profile"]],"sizes":[0.2,0.4,0.4]},"name":null},"VitalSigns":{"object":["dock_layout"],"payload":{"orientation":["horizontal"],"children":[{"children":[["block_panel-global_filter"],["block_panel-wayward_cardinal"]]},["block_panel-cut_wryneck"],["block_panel-pt_profile"]],"sizes":[0.2,0.4,0.4]},"name":["Vital Signs"]}}}}},"constructor":{"object":["blockr_ctor"],"constructor":["new_dock_board"],"package":["blockr.dock"],"version":["0.1.2"]},"version":["0.1.3"],"id":null}
